( Absorption  1.0 0 201203212242 22.50000000 -156.50000000 -1 0 0 OMS01_00000 P 0035 )
0.00 113.48 113.48
6.87 113.28 113.38
10.00 113.27 113.35
20.00 112.98 113.24
30.00 112.53 113.08
50.00 111.74 112.70
75.00 110.47 112.17
100.00 108.76 111.53
125.00 106.07 110.71
150.00 102.23 109.61
200.00 92.78 106.59
250.00 83.21 102.87
300.00 75.29 98.93
400.00 67.79 92.08
500.00 64.14 86.86
600.00 62.50 82.94
700.00 61.58 79.95
800.00 60.95 77.62
900.00 60.33 75.73
1000.00 59.76 74.16
1100.00 59.23 72.83
1200.00 58.72 71.67
1300.00 58.24 70.66
1400.00 57.77 69.76
1500.00 57.33 68.94
1750.00 56.29 67.21
2000.00 55.28 65.78
2500.00 53.36 63.49
3000.00 51.46 61.64
3500.00 49.60 60.05
4000.00 47.79 58.64
4500.00 46.05 57.33
5000.00 44.38 56.12
5500.00 42.82 54.98
12000.00 29.57 44.81
