( Absorption  1.0 0 201203212242 22.50000000 -156.50000000 -1 0 0 OMS01_00000 P 0035 )
0.00 83.33 83.33
6.87 83.20 83.27
10.00 83.21 83.25
20.00 83.07 83.19
30.00 82.80 83.11
50.00 82.37 82.90
75.00 81.66 82.60
100.00 80.70 82.25
125.00 79.19 81.79
150.00 76.92 81.16
200.00 70.68 79.32
250.00 63.52 76.88
300.00 56.83 74.09
400.00 49.47 68.86
500.00 45.19 64.55
600.00 42.96 61.14
700.00 41.69 58.45
800.00 40.88 56.31
900.00 40.10 54.55
1000.00 39.40 53.07
1100.00 38.77 51.80
1200.00 38.14 50.69
1300.00 37.57 49.70
1400.00 37.01 48.81
1500.00 36.49 48.01
1750.00 35.28 46.28
2000.00 34.25 44.84
2500.00 32.39 42.53
3000.00 30.76 40.71
3500.00 29.27 39.18
4000.00 27.88 37.86
4500.00 26.57 36.67
5000.00 25.35 35.60
5500.00 24.20 34.62
12000.00 16.10 26.78
