( Absorption  1.0 0 201203212242 22.50000000 -156.50000000 -1 0 0 OMS01_00000 P 0035 )
0.00 99.76 99.76
6.87 99.59 99.68
10.00 99.59 99.65
20.00 99.37 99.56
30.00 99.00 99.44
50.00 98.35 99.13
75.00 97.32 98.70
100.00 95.93 98.18
125.00 93.73 97.51
150.00 90.53 96.62
200.00 82.32 94.07
250.00 73.56 90.84
300.00 65.94 87.33
400.00 58.18 81.01
500.00 54.04 76.03
600.00 52.00 72.19
700.00 50.86 69.23
800.00 50.11 66.89
900.00 49.39 64.98
1000.00 48.73 63.39
1100.00 48.14 62.03
1200.00 47.56 60.85
1300.00 47.02 59.81
1400.00 46.49 58.87
1500.00 46.00 58.03
1750.00 44.85 56.23
2000.00 43.82 54.74
2500.00 41.92 52.37
3000.00 40.16 50.48
3500.00 38.49 48.89
4000.00 36.91 47.49
4500.00 35.40 46.23
5000.00 33.97 45.07
5500.00 32.63 44.00
12000.00 22.20 35.02
