( Absorption  1.0 0 201203212242 22.50000000 -156.50000000 -1 0 0 OMS01_00000 P 0035 )
0.00 137.35 137.35
6.87 137.12 137.23
10.00 137.10 137.19
20.00 136.74 137.06
30.00 136.19 136.86
50.00 135.22 136.40
75.00 133.69 135.75
100.00 131.62 134.98
125.00 128.42 133.99
150.00 123.96 132.69
200.00 113.61 129.21
250.00 103.88 125.12
300.00 96.59 120.97
400.00 90.82 114.16
500.00 88.94 109.30
600.00 88.49 105.87
700.00 88.25 103.37
800.00 87.94 101.46
900.00 87.65 99.94
1000.00 87.34 98.70
1100.00 87.00 97.65
1200.00 86.70 96.75
1300.00 86.38 95.96
1400.00 86.10 95.27
1500.00 85.78 94.65
1750.00 85.08 93.33
2000.00 84.15 92.24
2500.00 82.23 90.43
3000.00 80.01 88.88
3500.00 77.67 87.44
4000.00 75.31 86.08
4500.00 72.98 84.75
5000.00 70.71 83.46
5500.00 68.60 82.20
12000.00 48.26 69.33
